"participant","DayOfBirth","MonthOfBirth","YearOfBirth","age_years","age_months","AgeGroup","SiteID","Language","RemoveDOB","date","expName","psychopyVersion","visual_stimuli","age_group","block","block_displayed","test_trials","numRatio","convex_hull","avg_ind_Dot_size","cum_Surf","cum_perim","Num_1","Num_2","ConvHull_1","ConvHull_2","TotSurf_1","TotSurf_2","ADBD_1","ADBD_2","AvDiameter_1","AvDiameter_2","TotContour_1","TotContour_2","ADfC_1","ADfC_2","TS_CH_1","TS_CH_2","isa_1","isa_2","threefeat","threefeat_num","fourfeat","choice_right1","totaltime_exp","corAns","choice","accuracy","rt","filename","version"
"mn097",29,6,2023,2,6,"3 or younger","iucoglearn","English","no","2026-01-17_09h50.55.420","manynumbers_ams_visualmemory_v2025.0301D","2022.2.5","sample8_rect.png","all","sample",NA,1,3.5,"None","equated","None","None",NA,NA,NA,NA,NA,NA,NA,NA,NA,NA,NA,NA,NA,NA,NA,NA,NA,NA,NA,NA,NA,0,NA,"l","s",0,7.0012270999996,"mn097","local"
"mn097",29,6,2023,2,6,"3 or younger","iucoglearn","English","no","2026-01-17_09h50.55.420","manynumbers_ams_visualmemory_v2025.0301D","2022.2.5","sample8_rect.png","all","sample",NA,1,3.5,"None","equated","None","None",NA,NA,NA,NA,NA,NA,NA,NA,NA,NA,NA,NA,NA,NA,NA,NA,NA,NA,NA,NA,NA,0,NA,"l","s",0,3.42123790000005,"mn097","local"
"mn097",29,6,2023,2,6,"3 or younger","iucoglearn","English","no","2026-01-17_09h50.55.420","manynumbers_ams_visualmemory_v2025.0301D","2022.2.5","sample7_rect.png","all","sample",NA,1,4,"None","equated","None","None",NA,NA,NA,NA,NA,NA,NA,NA,NA,NA,NA,NA,NA,NA,NA,NA,NA,NA,NA,NA,NA,0,NA,"s","s",1,7.87748669999974,"mn097","local"
"mn097",29,6,2023,2,6,"3 or younger","iucoglearn","English","no","2026-01-17_09h50.55.420","manynumbers_ams_visualmemory_v2025.0301D","2022.2.5","Practice3_rect.png","all","practice",NA,3,4,"equated","0","0","equated",NA,NA,NA,NA,NA,NA,NA,NA,NA,NA,NA,NA,NA,NA,NA,NA,NA,NA,NA,NA,NA,0,NA,"s","s",1,6.30883710000035,"mn097","local"
"mn097",29,6,2023,2,6,"3 or younger","iucoglearn","English","no","2026-01-17_09h50.55.420","manynumbers_ams_visualmemory_v2025.0301D","2022.2.5","Practice5_rect.png","all","practice",NA,5,3.5,"0","0","equated","0",NA,NA,NA,NA,NA,NA,NA,NA,NA,NA,NA,NA,NA,NA,NA,NA,NA,NA,NA,NA,NA,0,NA,"s","s",1,3.24091420000013,"mn097","local"
"mn097",29,6,2023,2,6,"3 or younger","iucoglearn","English","no","2026-01-17_09h50.55.420","manynumbers_ams_visualmemory_v2025.0301D","2022.2.5","Practice1_rect.png","all","practice",NA,1,4,"equated","equated","0","0",NA,NA,NA,NA,NA,NA,NA,NA,NA,NA,NA,NA,NA,NA,NA,NA,NA,NA,NA,NA,NA,0,NA,"s","s",1,13.8671532999997,"mn097","local"
"mn097",29,6,2023,2,6,"3 or younger","iucoglearn","English","no","2026-01-17_09h50.55.420","manynumbers_ams_visualmemory_v2025.0301D","2022.2.5","Practice6_rect.png","all","practice",NA,6,3.5,"equated","0","0","equated",NA,NA,NA,NA,NA,NA,NA,NA,NA,NA,NA,NA,NA,NA,NA,NA,NA,NA,NA,NA,NA,0,NA,"l","s",0,3.72722339999973,"mn097","local"
"mn097",29,6,2023,2,6,"3 or younger","iucoglearn","English","no","2026-01-17_09h50.55.420","manynumbers_ams_visualmemory_v2025.0301D","2022.2.5","Practice4_rect.png","all","practice",NA,4,3.5,"equated","equated","0","0",NA,NA,NA,NA,NA,NA,NA,NA,NA,NA,NA,NA,NA,NA,NA,NA,NA,NA,NA,NA,NA,0,NA,"l","s",0,7.27139720000014,"mn097","local"
"mn097",29,6,2023,2,6,"3 or younger","iucoglearn","English","no","2026-01-17_09h50.55.420","manynumbers_ams_visualmemory_v2025.0301D","2022.2.5","Practice2_rect.png","all","practice",NA,2,4,"0","0","equated","0",NA,NA,NA,NA,NA,NA,NA,NA,NA,NA,NA,NA,NA,NA,NA,NA,NA,NA,NA,NA,NA,0,NA,"l","s",0,5.65494500000023,"mn097","local"
"mn097",29,6,2023,2,6,"3 or younger","iucoglearn","English","no","2026-01-17_09h50.55.420","manynumbers_ams_visualmemory_v2025.0301D","2022.2.5","Practice5_rect.png","all","practice",NA,5,3.5,"0","0","equated","0",NA,NA,NA,NA,NA,NA,NA,NA,NA,NA,NA,NA,NA,NA,NA,NA,NA,NA,NA,NA,NA,0,NA,"s","s",1,12.5657738,"mn097","local"
"mn097",29,6,2023,2,6,"3 or younger","iucoglearn","English","no","2026-01-17_09h50.55.420","manynumbers_ams_visualmemory_v2025.0301D","2022.2.5","Practice4_rect.png","all","practice",NA,4,3.5,"equated","equated","0","0",NA,NA,NA,NA,NA,NA,NA,NA,NA,NA,NA,NA,NA,NA,NA,NA,NA,NA,NA,NA,NA,0,NA,"l","s",0,14.7040195999998,"mn097","local"
"mn097",29,6,2023,2,6,"3 or younger","iucoglearn","English","no","2026-01-17_09h50.55.420","manynumbers_ams_visualmemory_v2025.0301D","2022.2.5","Practice3_rect.png","all","practice",NA,3,4,"equated","0","0","equated",NA,NA,NA,NA,NA,NA,NA,NA,NA,NA,NA,NA,NA,NA,NA,NA,NA,NA,NA,NA,NA,0,NA,"s","s",1,29.4448709000003,"mn097","local"
"mn097",29,6,2023,2,6,"3 or younger","iucoglearn","English","no","2026-01-17_09h50.55.420","manynumbers_ams_visualmemory_v2025.0301D","2022.2.5","Practice6_rect.png","all","practice",NA,6,3.5,"equated","0","0","equated",NA,NA,NA,NA,NA,NA,NA,NA,NA,NA,NA,NA,NA,NA,NA,NA,NA,NA,NA,NA,NA,0,NA,"l","s",0,17.7583219999997,"mn097","local"
"mn097",29,6,2023,2,6,"3 or younger","iucoglearn","English","no","2026-01-17_09h50.55.420","manynumbers_ams_visualmemory_v2025.0301D","2022.2.5","Practice2_rect.png","all","practice",NA,2,4,"0","0","equated","0",NA,NA,NA,NA,NA,NA,NA,NA,NA,NA,NA,NA,NA,NA,NA,NA,NA,NA,NA,NA,NA,1,NA,"l","l",1,34.3213015000001,"mn097","local"
"mn097",29,6,2023,2,6,"3 or younger","iucoglearn","English","no","2026-01-17_09h50.55.420","manynumbers_ams_visualmemory_v2025.0301D","2022.2.5","Practice1_rect.png","all","practice",NA,1,4,"equated","equated","0","0",NA,NA,NA,NA,NA,NA,NA,NA,NA,NA,NA,NA,NA,NA,NA,NA,NA,NA,NA,NA,NA,0,NA,"s","s",1,13.2249764000003,"mn097","local"
"mn097",29,6,2023,2,6,"3 or younger","iucoglearn","English","no","2026-01-17_09h50.55.420","manynumbers_ams_visualmemory_v2025.0301D","2022.2.5","Age3_test20_rect.png","3","block1","b2",20,3,"equated","0","equated","0",39,13,83464,83497,8890,8890,27,51,17,29,2061,1186,103,110,0.10651,0.10647,226.980069221863,660.519855417254,"0_equated_0",2,"2_equated",0,NA,"s","s",1,50.0285383,"mn097","local"
"mn097",29,6,2023,2,6,"3 or younger","iucoglearn","English","no","2026-01-17_09h50.55.420","manynumbers_ams_visualmemory_v2025.0301D","2022.2.5","Age3_test39_rect.png","3","block1","b2",39,2.5,"0","0","0","equated",14,35,187000,194000,21696,8705,72,45,44,18,1931,1931,181,171,0.11624,0.044812,1520.53084433746,254.469004940773,"0_0_equated",1,"10.0",1,NA,"l","l",1,2.13493259999996,"mn097","local"
"mn097",29,6,2023,2,6,"3 or younger","iucoglearn","English","no","2026-01-17_09h50.55.420","manynumbers_ams_visualmemory_v2025.0301D","2022.2.5","Age3_test30_rect.png","3","block1","b2",30,1.5,"0","0","equated","0",21,14,162000,132000,4357,4357,71,78,16,20,1062,867,179,164,0.026833,0.033121,201.061929829747,314.159265358979,"0_equated_0",2,"20.0",1,NA,"s","l",0,26.5753261,"mn097","local"
"mn097",29,6,2023,2,6,"3 or younger","iucoglearn","English","no","2026-01-17_09h50.55.420","manynumbers_ams_visualmemory_v2025.0301D","2022.2.5","Age3_test37_rect.png","3","block1","b2",37,2.5,"equated","0","0","equated",10,25,47827,47821,23422,9368,21,23,54,21,1688,1688,61,79,0.48972,0.1959,2290.22104446696,346.360590058275,"0_0_equated",1,"1_equated",0,NA,"l","s",0,4.22153100000014,"mn097","local"
"mn097",29,6,2023,2,6,"3 or younger","iucoglearn","English","no","2026-01-17_09h50.55.420","manynumbers_ams_visualmemory_v2025.0301D","2022.2.5","Age3_test5_rect.png","3","block1","b2",5,2.5,"equated","equated","0","0",25,10,79037,78988,7500,3000,41,84,19,19,1519,610,109,122,0.094892,0.03798,283.528736986479,283.528736986479,"equated_0_0",3,"3_equated",1,NA,"s","l",0,44.1463738000002,"mn097","local"
"mn097",29,6,2023,2,6,"3 or younger","iucoglearn","English","no","2026-01-17_09h50.55.420","manynumbers_ams_visualmemory_v2025.0301D","2022.2.5","Age3_test46_rect.png","3","block1","b2",46,1.5,"equated","0","0","equated",21,14,47864,47844,12016,17875,22,20,27,40,1751,1751,73,71,0.25104,0.37361,572.55526111674,1256.63706143592,"0_0_equated",1,"1_equated",1,NA,"s","l",0,1.06405540000014,"mn097","local"
"mn097",29,6,2023,2,6,"3 or younger","iucoglearn","English","no","2026-01-17_09h50.55.420","manynumbers_ams_visualmemory_v2025.0301D","2022.2.5","Age3_test14_rect.png","3","block1","b2",14,1.5,"equated","equated","0","0",14,21,113000,113000,4200,6300,79,58,19,19,850,1281,150,127,0.037204,0.055806,283.528736986479,283.528736986479,"equated_0_0",3,"3_equated",1,NA,"l","l",1,103.8728221,"mn097","local"
"mn097",29,6,2023,2,6,"3 or younger","iucoglearn","English","no","2026-01-17_09h50.55.420","manynumbers_ams_visualmemory_v2025.0301D","2022.2.5","Age3_test16_rect.png","3","block1","b2",16,1.5,"0","equated","0","0",26,39,183000,186000,7800,11700,64,44,19,19,1580,2365,178,179,0.042629,0.06296,283.528736986479,283.528736986479,"equated_0_0",3,"30.0",0,NA,"l","s",0,1.67912239999987,"mn097","local"
"mn097",29,6,2023,2,6,"3 or younger","iucoglearn","English","no","2026-01-17_09h50.55.420","manynumbers_ams_visualmemory_v2025.0301D","2022.2.5","Age3_test17_rect.png","3","block1","b2",17,3,"0","0","equated","0",10,30,166000,186000,4142,4142,130,63,23,13,711,1237,182,175,0.024997,0.022221,415.47562843725,132.732289614169,"0_equated_0",2,"20.0",0,NA,"l","s",0,2.38621929999954,"mn097","local"
"mn097",29,6,2023,2,6,"3 or younger","iucoglearn","English","no","2026-01-17_09h50.55.420","manynumbers_ams_visualmemory_v2025.0301D","2022.2.5","Age3_test44_rect.png","3","block1","b2",44,2,"0","0","0","equated",40,20,218000,182000,6897,13732,51,61,15,29,1838,1838,206,186,0.031639,0.075294,176.714586764426,660.519855417254,"0_0_equated",1,"10.0",1,NA,"s","l",0,1.78078060000007,"mn097","local"
"mn097",29,6,2023,2,6,"3 or younger","iucoglearn","English","no","2026-01-17_09h50.55.420","manynumbers_ams_visualmemory_v2025.0301D","2022.2.5","Age3_test22_rect.png","3","block1","b2",22,2.5,"0","0","equated","0",30,12,183000,156000,8133,8133,61,101,18,29,1730,1092,159,164,0.044509,0.052118,254.469004940773,660.519855417254,"0_equated_0",2,"20.0",0,NA,"s","s",1,1.45474110000032,"mn097","local"
"mn097",29,6,2023,2,6,"3 or younger","iucoglearn","English","no","2026-01-17_09h50.55.420","manynumbers_ams_visualmemory_v2025.0301D","2022.2.5","Age3_test28_rect.png","3","block1","b2",28,2,"equated","0","equated","0",40,20,156000,156000,3723,3723,50,71,11,15,1352,957,163,164,0.02382,0.023836,95.0331777710912,176.714586764426,"0_equated_0",2,"2_equated",1,NA,"s","l",0,1.41981349999969,"mn097","local"
"mn097",29,6,2023,2,6,"3 or younger","iucoglearn","English","no","2026-01-17_09h50.55.420","manynumbers_ams_visualmemory_v2025.0301D","2022.2.5","Age3_test2_rect.png","3","block1","b2",2,3,"equated","equated","0","0",11,33,74828,74793,3300,9900,65,28,19,19,668,2007,118,100,0.044101,0.13237,283.528736986479,283.528736986479,"equated_0_0",3,"3_equated",1,NA,"l","l",1,1.6118907,"mn097","local"
"mn097",29,6,2023,2,6,"3 or younger","iucoglearn","English","no","2026-01-17_09h50.55.420","manynumbers_ams_visualmemory_v2025.0301D","2022.2.5","Age3_test36_rect.png","3","block1","b2",36,3,"0","0","0","equated",39,13,204000,203000,7136,21253,48,82,15,45,1835,1835,173,197,0.035031,0.10469,176.714586764426,1590.43128087983,"0_0_equated",1,"10.0",1,NA,"s","l",0,1.87876969999979,"mn097","local"
"mn097",29,6,2023,2,6,"3 or younger","iucoglearn","English","no","2026-01-17_09h50.55.420","manynumbers_ams_visualmemory_v2025.0301D","2022.2.5","Age3_test25_rect.png","3","block1","b2",25,2,"0","0","equated","0",10,20,191000,177000,4145,4145,144,74,23,16,710,1007,216,180,0.021743,0.023379,415.47562843725,201.061929829747,"0_equated_0",2,"20.0",0,NA,"l","s",0,1.59144360000028,"mn097","local"
"mn097",29,6,2023,2,6,"3 or younger","iucoglearn","English","no","2026-01-17_09h50.55.420","manynumbers_ams_visualmemory_v2025.0301D","2022.2.5","Age3_test10_rect.png","3","block1","b2",10,2,"equated","equated","0","0",13,26,92872,92879,3900,7800,64,40,19,19,789,1578,136,116,0.041993,0.08398,283.528736986479,283.528736986479,"equated_0_0",3,"3_equated",1,NA,"l","l",1,2.17211210000005,"mn097","local"
"mn097",29,6,2023,2,6,"3 or younger","iucoglearn","English","no","2026-01-17_09h50.55.420","manynumbers_ams_visualmemory_v2025.0301D","2022.2.5","Age3_test8_rect.png","3","block2","b1",8,2.5,"0","equated","0","0",16,40,180000,196000,4800,12000,89,45,19,19,967,2421,179,176,0.026727,0.061347,283.528736986479,283.528736986479,"equated_0_0",3,"30.0",1,NA,"l","l",1,2.11727109999993,"mn097","local"
"mn097",29,6,2023,2,6,"3 or younger","iucoglearn","English","no","2026-01-17_09h50.55.420","manynumbers_ams_visualmemory_v2025.0301D","2022.2.5","Age3_test3_rect.png","3","block2","b1",3,3,"0","equated","0","0",36,12,199000,141000,10800,3600,53,97,19,19,2187,734,185,177,0.054346,0.025618,283.528736986479,283.528736986479,"equated_0_0",3,"30.0",0,NA,"s","s",1,1.39420100000007,"mn097","local"
"mn097",29,6,2023,2,6,"3 or younger","iucoglearn","English","no","2026-01-17_09h50.55.420","manynumbers_ams_visualmemory_v2025.0301D","2022.2.5","Age3_test19_rect.png","3","block2","b1",19,3,"equated","0","equated","0",12,36,147000,147000,5764,5764,85,50,25,14,927,1593,184,148,0.039283,0.039307,490.873852123405,153.9380400259,"0_equated_0",2,"2_equated",1,NA,"l","l",1,1.53191740000057,"mn097","local"
"mn097",29,6,2023,2,6,"3 or younger","iucoglearn","English","no","2026-01-17_09h50.55.420","manynumbers_ams_visualmemory_v2025.0301D","2022.2.5","Age3_test35_rect.png","3","block2","b1",35,3,"0","0","0","equated",12,36,204000,192000,27086,9094,77,49,53,18,1999,1999,174,184,0.13266,0.047275,2206.18344098343,254.469004940773,"0_0_equated",1,"10.0",0,NA,"l","s",0,2.53933620000043,"mn097","local"
